T [ms],AccX [mg],AccY [mg],AccZ [mg],GyroX [mdps],GyroY [mdps],GyroZ [mdps]
8364, -1452, -1734, -877, -73010, -210140, 418600
8384, -467, -1062, 135, -77490, -147490, 428050
8404, -462, -1076, 314, 107170, -111930, -52150
8424, -439, -1030, 73, 49070, -138670, -44240
8444, -226, -773, 122, -15960, -157780, 38290
8464, -349, -869, 0, -90300, -130970, 52500
8484, -423, -1000, -91, -221690, -61180, 111720
8504, -449, -883, -117, -211050, -25480, 86660
8524, -359, -811, -67, -71470, -41720, -46690
8544, -369, -800, -71, 3990, -189700, -57540
8564, -461, -859, -113, -39760, -281190, -6860
8584, -531, -911, -162, -141960, -316890, 33180
8604, -523, -904, -174, -185640, -388430, 35840
8624, -508, -877, -172, -179690, -467320, -21070
8644, -571, -874, -211, -207690, -506590, -73990
8664, -509, -777, -196, -233240, -550060, -106050
8684, -513, -767, -224, -228060, -616700, -151060
8704, -546, -756, -245, -240030, -680680, -165060
8724, -552, -718, -235, -258580, -805140, -110740
8744, -601, -790, -268, -336350, -787990, -138810
8764, -642, -864, -302, -379260, -783930, -172270
8784, -673, -897, -312, -385980, -812000, -192010
8804, -713, -904, -348, -403200, -837760, -206920
8824, -680, -801, -349, -397880, -877730, -225820
8844, -594, -654, -322, -372960, -927710, -241220
8864, -573, -595, -315, -381640, -955920, -221060
8884, -602, -630, -331, -414960, -960750, -176680
8904, -659, -722, -355, -440090, -955220, -149240
8924, -677, -755, -366, -439740, -949550, -156170
8944, -614, -697, -327, -427420, -936530, -193690
8964, -605, -744, -334, -452620, -886970, -241010
8984, -670, -886, -381, -484680, -843500, -248570
9004, -676, -921, -382, -460040, -847490, -229810
9024, -603, -851, -343, -398510, -867790, -225750
9044, -520, -787, -310, -360990, -866740, -216510
9064, -520, -810, -308, -371000, -832790, -168630
9084, -552, -871, -311, -387380, -792470, -88270
9104, -539, -880, -291, -366660, -762160, -33180
9124, -510, -878, -276, -337190, -714000, -35560
9144, -477, -883, -269, -327880, -635810, -75460
9164, -459, -939, -264, -305270, -567700, -112140
9184, -470, -1023, -266, -253190, -529900, -116900
9204, -460, -1056, -246, -189910, -509250, -90230
9224, -429, -1019, -222, -143290, -473900, -58310
9244, -397, -949, -209, -129220, -407960, -31710
9264, -365, -880, -191, -126420, -329420, -11340
9284, -356, -868, -186, -112000, -251930, -8330
9304, -363, -900, -189, -85330, -178710, -19110
9324, -346, -907, -181, -47810, -112280, -34720
9344, -344, -916, -185, -11270, -44730, -48510
9364, -356, -929, -192, 9870, 28700, -40600
9384, -374, -941, -192, 37240, 90790, -10570
9404, -410, -975, -184, 72660, 142450, 25060
9424, -458, -1008, -226, 76650, 253260, 64120
9444, -435, -936, -221, 102340, 320320, 22750
9464, -385, -836, -203, 148540, 376600, -16520
9484, -352, -775, -190, 185710, 421470, -10080
9504, -412, -848, -210, 195440, 467740, 33250
9524, -548, -1037, -275, 172760, 530740, 66710
9544, -598, -1088, -301, 168210, 593880, 50120
9564, -516, -915, -279, 216580, 624120, 7210
9584, -411, -690, -223, 306810, 608860, -3360
9604, -394, -606, -210, 372820, 587510, 35490
9624, -455, -648, -235, 372960, 607320, 76580
9644, -534, -755, -268, 351260, 655130, 76090
9664, -575, -862, -300, 356860, 692930, 33740
9684, -514, -870, -263, 418460, 684600, -5460
9704, -484, -872, -231, 473480, 649740, 25900
9724, -604, -1007, -277, 418670, 652540, 132650
9744, -680, -1108, -319, 302470, 695100, 210630
9764, -570, -948, -261, 272090, 695800, 206080
9784, -470, -761, -207, 333620, 626290, 193760
9804, -466, -726, -202, 365470, 561960, 216860
9824, -523, -805, -219, 335930, 550270, 229740
9844, -607, -978, -248, 282520, 576450, 194320
9864, -623, -1093, -260, 239680, 605290, 113680
9884, -479, -933, -186, 253960, 583660, 32900
9904, -421, -816, -145, 302050, 508830, 24080
9924, -472, -860, -178, 269990, 462980, 83580
9944, -508, -916, -192, 184660, 458150, 124250
9964, -496, -913, -187, 168210, 421750, 109130
9984, -453, -888, -165, 232260, 333270, 61810
10004, -410, -895, -132, 313880, 227710, 14490
10024, -433, -1007, -123, 343000, 150500, -7840
10044, -532, -1220, -175, 280420, 124740, 7630
10064, -605, -1382, -226, 172340, 116340, 47390
10084, -623, -1382, -228, 135100, 52500, 82390
10104, -551, -1234, -192, 185780, -69790, 97790
10124, -462, -1074, -173, 224770, -168560, 79310
10144, -436, -964, -126, 123620, -210770, 33460
10164, -527, -1081, -178, 34930, -213710, 26600
10184, -604, -1233, -221, 18410, -268870, 4550
10204, -660, -1366, -253, 53970, -360780, -39200
10224, -597, -1217, -207, 86870, -455070, -72100
10244, -489, -966, -168, 23870, -488180, -93380
10264, -476, -867, -183, -84770, -486570, -95550
10284, -497, -834, -205, -138600, -518350, -77560
10304, -507, -793, -209, -135380, -573440, -84910
10324, -474, -716, -193, -143570, -593670, -144970
10344, -432, -658, -184, -188440, -579950, -218260
10364, -421, -624, -181, -231630, -580930, -245980
10384, -444, -646, -204, -268660, -605990, -223650
10404, -479, -663, -239, -293720, -647780, -181650
10424, -481, -644, -251, -278880, -707630, -142870
10444, -462, -618, -255, -258020, -749840, -135520
10464, -436, -602, -241, -255570, -755300, -146580
10484, -438, -653, -254, -274260, -726530, -159810
10504, -508, -811, -281, -300510, -680750, -166320
10524, -619, -1023, -332, -290570, -652750, -170170
10544, -718, -1240, -362, -238490, -645610, -197050
10564, -671, -1265, -331, -164360, -643720, -270830
10584, -538, -1147, -310, -158900, -596260, -357070
10604, -480, -1034, -281, -205590, -533540, -353080
10624, -567, -1140, -291, -195650, -529900, -249410
10644, -630, -1235, -296, -173110, -507710, -189070
10664, -520, -1137, -246, -164990, -423220, -240450
10684, -427, -1129, -247, -206080, -268100, -356580
10704, -453, -1233, -276, -242130, -125300, -393190
10724, -508, -1346, -270, -196070, -71330, -315350
10744, -526, -1409, -272, -91770, -70490, -213010
10764, -598, -1490, -303, -56280, -13230, -160300
10784, -599, -1452, -313, -77770, 103250, -154140
10804, -551, -1337, -283, -75390, 217000, -175770
10824, -512, -1227, -270, -29680, 290850, -191660
10844, -487, -1139, -250, 119280, 325360, -129080
10864, -517, -1110, -245, 160860, 352590, -99190
10884, -515, -1080, -237, 167440, 405580, -104860
10904, -457, -956, -213, 164710, 452900, -120610
10924, -383, -818, -175, 176120, 455000, -87290
10944, -353, -706, -108, 193130, 419160, -19460
10964, -338, -656, -123, 191520, 356440, 47110
10984, -318, -608, -74, 186130, 304780, 76370
11004, -325, -599, -84, 178220, 256410, 82600
11024, -298, -554, -53, 150290, 214060, 64960
11044, -274, -538, -44, 97860, 192080, 30940
11064, -270, -540, -50, 41790, 168630, 11270
11084, -269, -571, -55, -140, 136290, 2520
11104, -296, -670, -79, -42000, 107240, 1120
11124, -366, -886, -135, -81550, 82600, 12600
11144, -477, -1133, -187, -116550, 69650, 29120
11164, -563, -1316, -227, -146370, 71260, 34930
11184, -524, -1288, -224, -170170, 84490, 16800
11204, -422, -1118, -189, -176680, 88970, -1120
11224, -446, -1122, -201, -157990, 64050, 41160
11244, -540, -1283, -243, -158130, 55230, 114660
11264, -606, -1447, -257, -171150, 79380, 139650
11284, -660, -1611, -298, -191940, 133840, 108640
11304, -612, -1501, -264, -230650, 190610, 74760
11324, -568, -1374, -226, -212450, 174650, 90440
11344, -633, -1480, -254, -169960, 118300, 137830
11364, -721, -1618, -290, -170520, 86310, 179620
11384, -696, -1544, -277, -200410, 88270, 176470
11404, -557, -1299, -212, -221900, 101220, 119770
11424, -475, -1119, -174, -202020, 76020, 70070
11444, -479, -1075, -177, -187320, 25130, 86030
11464, -531, -1151, -209, -190820, -27440, 141610
11484, -569, -1234, -239, -202580, -59570, 171290
11504, -504, -1114, -216, -202790, -72380, 149730
11524, -407, -939, -176, -173810, -82600, 94920
11544, -339, -809, -148, -140910, -90230, 53480
11564, -316, -749, -142, -107660, -105420, 90440
11584, -317, -708, -142, -83790, -109760, 121870
11604, -305, -655, -138, -55160, -98420, 120890
11624, -282, -616, -121, -33810, -68040, 85120
11644, -285, -624, -122, -17080, -34580, 44870
11664, -303, -630, -123, 4970, -16030, 18620
11684, -348, -713, -148, 22400, -2100, -14140
11704, -358, -749, -162, 42000, 18830, -77560
11724, -352, -780, -152, 105490, 11480, -133700
11744, -397, -951, -181, 143220, 2100, -150500
11764, -506, -1195, -246, 129080, 13020, -135800
11784, -593, -1372, -277, 138950, 11410, -119840
11804, -566, -1337, -254, 167930, 3850, -121660
11824, -498, -1177, -234, 155820, 29050, -140770
11844, -480, -1108, -228, 150080, 40810, -132440
11864, -586, -1266, -284, 172830, 28560, -108990
11884, -681, -1467, -324, 201950, 25690, -126910
11904, -676, -1580, -312, 253470, 24360, -192990
11924, -607, -1500, -286, 263480, 38850, -235830
11944, -568, -1397, -276, 226030, 49350, -189280
11964, -633, -1454, -303, 207340, 37380, -114380
11984, -683, -1507, -313, 213080, 23240, -74270
12004, -647, -1433, -286, 238630, 15190, -99330
12024, -546, -1274, -243, 245350, 25620, -156870
12044, -501, -1190, -201, 231910, 25060, -183120
12064, -477, -1125, -181, 226660, -9940, -150990
12084, -503, -1119, -196, 173950, -29190, -100870
12104, -494, -1058, -178, 134470, -56000, -67130
12124, -449, -964, -161, 113820, -81340, -80150
12144, -405, -856, -140, 82880, -95830, -116130
12164, -339, -726, -118, 54390, -114170, -139650
12184, -279, -612, -92, 28560, -135660, -149240
12204, -243, -535, -76, 13440, -166320, -136780
12224, -236, -512, -79, -10500, -192010, -106050
12244, -240, -500, -81, -50260, -202440, -73710
12264, -232, -490, -80, -84420, -208950, -37100
12284, -213, -512, -126, -126210, -208250, -29750
12304, -216, -520, -95, -136570, -173880, -26740
12324, -227, -591, -118, -132370, -145530, -18060
12344, -236, -669, -145, -123620, -129220, 13930
12364, -286, -838, -161, -97090, -104230, 65660
12384, -395, -1075, -212, -81130, -77280, 134680
12404, -499, -1263, -245, -86520, -35560, 198450
12424, -554, -1311, -262, -101220, 19180, 231000
12444, -511, -1233, -235, -91350, 50330, 228760
12464, -535, -1306, -236, -41300, 44030, 222040
12484, -590, -1477, -252, -13160, 37100, 227920
12504, -689, -1697, -288, -23800, 49840, 239680
12524, -746, -1742, -318, -80430, 73500, 264600
12544, -694, -1564, -272, -107100, 59850, 291340
12564, -668, -1514, -260, -74480, 980, 295680
12584, -699, -1591, -265, -34650, -64960, 286160
12604, -720, -1653, -288, -35210, -93940, 262920
12624, -644, -1530, -268, -70560, -88340, 223090
12644, -604, -1415, -267, -94570, -85190, 197820
12664, -576, -1322, -250, -70000, -126840, 219310
12684, -536, -1223, -232, -14420, -176330, 241710
12704, -476, -1117, -221, 5530, -174230, 221830
12724, -427, -1000, -205, -4130, -134330, 184380
12744, -373, -891, -173, -4200, -90300, 158550
12764, -348, -833, -165, 19180, -56770, 142100
12784, -335, -782, -164, 32970, -20580, 131600
12804, -287, -674, -140, 57120, 6510, 126700
12824, -265, -618, -116, 97930, 21350, 122570
12844, -271, -588, -118, 118090, 49490, 118370
12864, -279, -568, -114, 98070, 100380, 115850
12884, -288, -570, -122, 78120, 152880, 95970
12904, -283, -538, -118, 75180, 190400, 58520
12924, -265, -514, -109, 97230, 202300, 16380
12944, -250, -525, -107, 147420, 186060, -21140
12964, -294, -613, -127, 191030, 162050, -37450
12984, -443, -888, -203, 197190, 172900, -58730
13004, -665, -1337, -304, 218890, 185640, -115150
13024, -819, -1868, -353, 281820, 171780, -196210
13044, -585, -1514, -241, 277200, 167650, -220570
13064, -443, -1061, -194, 180460, 162120, -111860
13084, -470, -1033, -225, 149660, 108710, 4200
13104, -669, -1357, -343, 203280, 37870, 37870
13124, -873, -1703, -395, 333970, -25410, -31780
13144, -771, -1710, -316, 392280, -15470, -201740
13164, -553, -1482, -252, 291760, 69090, -306740
13184, -563, -1377, -263, 194040, 55300, -178290
13204, -652, -1416, -300, 186970, -41090, -1680
13224, -723, -1462, -326, 233590, -119840, 31850
13244, -724, -1360, -224, 259700, -127540, -78120
13264, -643, -1347, -228, 204050, -82250, -231000
13284, -612, -1385, -228, 129640, -120960, -281680
13304, -594, -1333, -252, 77070, -192220, -237510
13324, -568, -1163, -239, 59850, -286860, -152180
13344, -480, -936, -192, 43610, -331940, -127470
13364, -390, -759, -144, 490, -317520, -174300
13384, -344, -683, -131, -46760, -301630, -210280
13404, -334, -671, -142, -122570, -266490, -224420
13424, -294, -627, -137, -175980, -238350, -225610
13444, -250, -574, -130, -163100, -253400, -211610
13464, -221, -545, -134, -142940, -269780, -179690
13484, -199, -518, -121, -133140, -267190, -131250
13504, -185, -504, -117, -120050, -243880, -82250
13524, -165, -487, -102, -110180, -210140, -37660
13544, -172, -502, -101, -108710, -163100, 5320
13564, -215, -571, -119, -119070, -115220, 56490
13584, -275, -683, -144, -119280, -83510, 111370
13604, -368, -899, -187, -87990, -76440, 151550
13624, -489, -1207, -241, -30380, -84350, 169190
13644, -597, -1527, -281, 27510, -86520, 165900
13664, -625, -1623, -298, 68250, -80080, 157500
13684, -552, -1389, -262, 58100, -52430, 166460
13704, -486, -1165, -207, 32760, -40390, 245980
13724, -530, -1242, -244, 51660, -68600, 283290
13744, -669, -1569, -299, 100870, -100870, 288050
13764, -848, -1998, -378, 124740, -95340, 250670
13784, -730, -1840, -337, 99120, -56630, 199640
13804, -558, -1387, -244, 78260, -56280, 214550
13824, -591, -1343, -267, 73430, -94010, 301770
13844, -716, -1595, -317, 96600, -126140, 341110
13864, -876, -1969, -383, 138880, -129150, 288120
13884, -690, -1684, -304, 130130, -82810, 179550
13904, -469, -1226, -192, 120400, -61390, 121940
13924, -448, -1043, -182, 86380, -77980, 195370
13944, -480, -1003, -198, 53480, -104720, 296450
13964, -498, -998, -210, 69160, -122080, 308910
13984, -462, -938, -201, 101710, -107030, 221340
14004, -355, -782, -148, 127260, -66850, 87640
14024, -266, -673, -113, 137970, -25340, -12600
14044, -220, -598, -91, 106960, 17150, -29820
14064, -219, -564, -102, 61810, 44590, 20370
14084, -238, -540, -106, 50260, 40740, 93590
14104, -248, -504, -100, 74830, 26670, 138250
14124, -244, -473, -95, 95760, 37520, 125650
14144, -254, -469, -100, 99750, 77700, 66010
14164, -278, -509, -111, 103180, 123410, -10150
14184, -325, -582, -127, 123830, 152740, -82880
14204, -388, -705, -148, 154210, 170170, -155470
14224, -483, -1000, -190, 175980, 190610, -233030
14244, -587, -1498, -238, 184100, 214690, -301630
14264, -758, -1997, -345, 170520, 227150, -315280
14284, -687, -1568, -299, 115010, 209510, -214550
14304, -552, -1139, -223, 82320, 150360, -81410
14324, -583, -1120, -232, 115010, 87430, -65100
14344, -807, -1552, -330, 150080, 55370, -136010
14364, -1033, -1998, -336, 183260, 40320, -247940
14384, -754, -1886, -294, 199080, 40950, -380450
14404, -582, -1352, -234, 42840, -21560, -289940
14424, -680, -1397, -284, 38220, -141400, -147700
14444, -843, -1631, -326, 58520, -195510, -171570
14464, -799, -1640, -273, 21700, -143150, -331170
14484, -636, -1434, -249, -102830, -37030, -462350
14504, -493, -1126, -197, -120260, -84630, -412930
14524, -463, -1029, -184, -61460, -229810, -280700
14544, -483, -1049, -206, -72100, -300160, -188020
14564, -424, -948, -180, -132930, -279720, -172200
14584, -371, -830, -169, -220010, -196560, -195090
14604, -366, -774, -181, -290990, -117950, -198660
14624, -313, -684, -159, -260610, -117600, -190120
14644, -248, -599, -145, -167790, -165130, -180250
14664, -185, -511, -111, -100870, -196140, -146370
14684, -149, -468, -110, -83720, -200060, -89950
14704, -129, -395, -72, -76790, -170030, -31010
14724, -141, -397, -91, -74340, -131530, 26880
14744, -148, -403, -96, -81550, -92330, 69720
14764, -163, -435, -93, -56350, -63210, 91840
14784, -202, -521, -131, -19600, -43470, 106330
14804, -242, -614, -149, 27230, -32760, 114660
14824, -333, -814, -176, 106400, -41090, 118860
14844, -479, -1232, -255, 181230, -55930, 119420
14864, -696, -1816, -300, 224280, -57120, 112980
14884, -649, -1531, -289, 194110, -25760, 130200
14904, -475, -1089, -210, 72450, 35420, 173600
14924, -415, -978, -193, 59150, 13650, 197890
14944, -594, -1351, -261, 123270, -63560, 218400
14964, -1012, -1998, -432, 185500, -141820, 246330
14984, -987, -1998, -445, 232120, -196140, 218540
15004, -605, -1547, -280, 179410, -150220, 101150
15024, -625, -1447, -326, 86380, -99120, 67900
15044, -748, -1693, -369, 88900, -165760, 178850
15064, -796, -1774, -353, 195580, -265160, 238490
15084, -626, -1461, -276, 280840, -299390, 185080
15104, -528, -1284, -238, 201180, -201180, 62160
15124, -578, -1315, -276, 100240, -158480, 64610
15144, -581, -1299, -269, 163520, -231770, 98560
15164, -511, -1152, -236, 188440, -246470, 64260
15184, -419, -934, -189, 165060, -215040, 18200
15204, -341, -749, -144, 133840, -175280, -11550
15224, -291, -666, -138, 100450, -134540, -33530
15244, -255, -603, -120, 87920, -108150, -41930
15264, -239, -548, -101, 95760, -94360, -35000
15284, -232, -503, -80, 88900, -73780, -28280
15304, -230, -493, -69, 61110, -47530, -32270
15324, -243, -508, -73, 22260, -22960, -42770
15344, -255, -532, -79, -7630, -9240, -54810
15364, -259, -550, -80, -32690, 5180, -79100
15384, -267, -585, -89, -70350, 35490, -115010
15404, -301, -671, -108, -102970, 63140, -141050
15424, -352, -835, -128, -114660, 73850, -154490
15444, -417, -1093, -163, -121730, 78610, -161910
15464, -572, -1431, -255, -160090, 92960, -142380
15484, -631, -1538, -279, -213290, 101290, -86380
15504, -581, -1391, -254, -209160, 76300, -50960
15524, -525, -1245, -224, -185220, 49000, -34440
15544, -529, -1277, -228, -175490, 42910, -27090
15564, -653, -1639, -298, -194460, 78610, -51590
15584, -738, -1850, -336, -235200, 132230, -75460
15604, -618, -1512, -280, -251580, 142240, -57750
15624, -503, -1220, -225, -241570, 111370, -14980
15644, -508, -1200, -225, -213710, 70910, 23590
15664, -608, -1426, -268, -197680, 58170, 45290
15684, -657, -1583, -297, -222880, 101640, 15470
15704, -576, -1408, -260, -253540, 151060, -35210
15724, -449, -1125, -199, -234850, 136360, -41370
15744, -396, -970, -178, -187670, 75740, 3080
15764, -425, -988, -198, -161210, 30100, 66290
15784, -465, -1015, -199, -174860, 35910, 107660
15804, -429, -960, -191, -194110, 74130, 95130
15824, -355, -838, -160, -148120, 106890, -5250
15844, -310, -759, -134, -96880, 71610, 3080
15864, -284, -692, -117, -52150, 22960, 50190
15884, -293, -680, -115, -40110, -2520, 98770
15904, -329, -720, -141, -68110, 10290, 119490
15924, -341, -730, -147, -72730, 20510, 104370
15944, -308, -673, -131, -33670, 11690, 62790
15964, -277, -624, -120, -490, 5670, 22120
15984, -259, -611, -118, 22120, 0, 6300
16004, -276, -683, -141, 49280, -15400, 18130
16024, -328, -797, -165, 91490, -41720, 47600
16044, -388, -936, -193, 140350, -65590, 69860
16064, -471, -1129, -232, 166390, -64470, 68530
16084, -563, -1352, -275, 169260, -37450, 48930
16104, -576, -1415, -283, 170380, -10850, 25690
16124, -492, -1238, -231, 190470, -16240, 25970
16144, -482, -1174, -234, 200130, -39130, 65520
16164, -565, -1312, -274, 202650, -66640, 118720
16184, -767, -1703, -360, 231000, -91770, 130690
16204, -799, -1826, -368, 256480, -90930, 78680
16224, -593, -1520, -269, 266420, -72730, -12740
16244, -545, -1359, -250, 238770, -68040, -31710
16264, -603, -1364, -278, 200900, -106890, 68530
16284, -676, -1459, -310, 212870, -162050, 136500
16304, -632, -1372, -278, 227010, -170310, 90370
16324, -554, -1253, -243, 221620, -142310, -17850
16344, -502, -1202, -221, 195860, -121590, -91000
16364, -491, -1166, -210, 173810, -140070, -85820
16384, -503, -1108, -210, 155470, -182140, -27510
16404, -477, -991, -193, 127260, -208040, 17850
16424, -418, -842, -161, 99260, -205240, -3850
16444, -358, -715, -128, 70490, -183050, -72520
16464, -305, -613, -100, 41650, -168490, -130270
16484, -266, -553, -84, 24570, -178640, -155470
16504, -246, -531, -83, -840, -196280, -155540
16524, -242, -518, -81, -42140, -208740, -139580
16544, -255, -536, -91, -140280, -207340, -90230
16564, -262, -566, -109, -182630, -194390, -78400
16584, -286, -644, -131, -213710, -176400, -74480
16604, -317, -765, -160, -227920, -155190, -73570
16624, -342, -923, -186, -222810, -138320, -62650
16644, -403, -1103, -219, -207410, -126910, -20650
16664, -460, -1263, -284, -193690, -115780, 53830
16684, -496, -1287, -266, -171570, -86310, 124530
16704, -465, -1180, -251, -147770, -38570, 163870
16724, -447, -1093, -228, -132020, 3570, 188160
16744, -476, -1141, -218, -106750, 42420, 194530
16764, -531, -1328, -256, -92120, 74340, 186620
16784, -599, -1508, -270, -77000, 91910, 186970
16804, -611, -1456, -269, -78120, 100800, 217140
16824, -549, -1257, -233, -93170, 97580, 253330
16844, -520, -1182, -207, -89530, 83650, 264040
16864, -578, -1298, -229, -81130, 69090, 259560
16884, -676, -1507, -274, -91560, 63630, 244090
16904, -630, -1479, -262, -101290, 58730, 204470
16924, -497, -1233, -212, -90790, 45850, 159460
16944, -462, -1092, -199, -87500, 25060, 167440
16964, -474, -1052, -209, -90160, -1890, 227780
16984, -471, -1041, -223, -87640, -8050, 257880
17004, -435, -978, -200, -73570, 12320, 224350
17024, -390, -888, -174, -42350, 39550, 167020
17044, -349, -822, -164, -10710, 59010, 125300
17064, -324, -780, -154, 1750, 78680, 108220
17084, -319, -734, -148, 10500, 92750, 120050
17104, -326, -706, -146, 30240, 97020, 148260
17124, -322, -682, -144, 40810, 113260, 153790
17144, -313, -660, -135, 44310, 141890, 123480
17164, -319, -665, -142, 62650, 158130, 88480
17184, -307, -662, -143, 86450, 160860, 63700
17204, -328, -701, -145, 119630, 153370, 42420
17224, -372, -807, -175, 156520, 141400, 29610
17244, -414, -922, -202, 221970, 116620, 2030
17264, -468, -1100, -218, 273350, 84910, -3640
17284, -567, -1341, -262, 270130, 84630, -2310
17304, -624, -1498, -298, 236880, 105420, -1470
17324, -543, -1324, -247, 236670, 93450, 11480
17344, -492, -1144, -222, 244580, 53410, 56350
17364, -531, -1181, -240, 242900, 18200, 90300
17384, -612, -1373, -284, 260820, -12810, 75250
17404, -686, -1585, -316, 285040, -35350, 25410
17424, -619, -1515, -274, 293790, -51660, -19390
17444, -543, -1342, -241, 260330, -60760, -22260
17464, -552, -1293, -244, 217630, -84000, 27230
17484, -620, -1371, -274, 208320, -125440, 71960
17504, -686, -1485, -308, 209020, -147840, 49140
17524, -625, -1398, -251, 210140, -152250, -31710
17544, -543, -1267, -219, 190680, -154000, -105350
17564, -486, -1127, -193, 146020, -175910, -107450
17584, -469, -1031, -190, 115570, -229250, -55650
17604, -450, -928, -185, 80920, -265440, -20370
17624, -389, -773, -148, 57470, -274820, -37030
17644, -342, -679, -122, 31150, -257180, -94010
17664, -324, -642, -117, -21490, -223020, -147140
17684, -295, -611, -106, -58450, -213010, -170170
17704, -269, -593, -99, -70560, -230790, -168280
17724, -261, -587, -106, -88550, -251650, -142310
17744, -273, -627, -153, -120680, -264040, -97860
17764, -271, -640, -136, -148120, -256410, -56420
17784, -279, -714, -155, -148610, -228970, -39480
17804, -330, -867, -191, -148680, -199920, -22960
17824, -371, -995, -203, -152740, -158690, 3010
17844, -399, -1072, -217, -140140, -121590, 38920
17864, -432, -1106, -229, -129640, -88830, 87360
17884, -414, -1047, -215, -126000, -52570, 136780
17904, -434, -1074, -204, -90370, -39760, 174230
17924, -482, -1173, -212, -53760, -24990, 194810
17944, -512, -1252, -224, -54180, 7910, 204120
17964, -584, -1373, -248, -122290, 81410, 209230
17984, -621, -1453, -258, -125510, 64890, 219660
18004, -630, -1484, -256, -91700, 8890, 233100
18024, -630, -1458, -256, -83370, -28770, 241710
18044, -594, -1369, -243, -102620, -33250, 231000
18064, -557, -1301, -240, -138810, -14910, 206290
18084, -535, -1245, -228, -138040, -25970, 203140
18104, -518, -1194, -224, -101990, -66010, 221340
18124, -508, -1172, -227, -73850, -87360, 227010
18144, -478, -1135, -225, -56070, -83300, 213010
18164, -462, -1083, -210, -39620, -66570, 198870
18184, -450, -1040, -204, -27020, -43470, 188160
18204, -416, -962, -187, -13230, -23520, 175560
18224, -376, -866, -167, 12810, -14560, 165690
18244, -355, -807, -163, 33530, -2520, 157500
18264, -334, -757, -156, 53620, 12740, 148400
18284, -325, -733, -147, 73990, 36820, 133280
18304, -331, -745, -151, 81900, 71330, 114800
18324, -358, -767, -152, 88060, 103390, 98840
18344, -387, -808, -171, 105420, 120120, 82040
18364, -374, -790, -166, 129430, 128870, 45010
18384, -343, -754, -148, 175630, 120680, 0
18404, -361, -815, -160, 203770, 115360, -26740
18424, -442, -963, -210, 189280, 127540, -25130
18444, -521, -1131, -244, 177590, 141540, -24080
18464, -572, -1294, -256, 206920, 139510, -53130
18484, -627, -1434, -289, 224770, 137760, -87780
18504, -578, -1358, -251, 230650, 121310, -96390
18524, -519, -1220, -224, 245700, 86450, -92960
18544, -533, -1203, -240, 221480, 62580, -73500
18564, -612, -1316, -282, 208530, 24220, -42910
18584, -733, -1586, -340, 230580, -19390, -50050
18604, -698, -1620, -306, 268240, -50680, -111510
18624, -549, -1354, -242, 281680, -59500, -185570
18644, -493, -1146, -222, 223160, -45010, -199150
18664, -551, -1177, -249, 172060, -122920, -73570
18684, -699, -1469, -310, 203770, -164640, -107030
18704, -778, -1684, -304, 208740, -165900, -199710
18724, -661, -1470, -274, 128170, -120750, -283780
18744, -471, -1108, -191, 72100, -136850, -276500
18764, -430, -955, -190, 63490, -218120, -189000
18784, -431, -897, -189, 64190, -284410, -119070
18804, -380, -796, -150, 44730, -281750, -134050
18824, -354, -762, -141, -38920, -203280, -192570
18844, -364, -762, -150, -117250, -134050, -220780
18864, -338, -722, -134, -124390, -129500, -217630
18884, -267, -665, -149, -99050, -158690, -205170
18904, -233, -614, -134, -87010, -184030, -169050
18924, -192, -539, -109, -83510, -188090, -108430
18944, -162, -469, -85, -72170, -179620, -39480
18964, -167, -470, -106, -84350, -152180, 21210
18984, -164, -466, -107, -111230, -98350, 62650
19004, -169, -486, -103, -101500, -51030, 92330
19024, -207, -584, -124, -78260, -12460, 122920
19044, -295, -778, -157, -58590, 19880, 160020
19064, -460, -1184, -238, -34300, 43750, 199360
19084, -745, -1840, -342, -10500, 63770, 232330
19104, -813, -1853, -368, -12180, 92120, 260750
19124, -505, -1135, -211, -49070, 117180, 275730
19144, -436, -974, -176, -42840, 101220, 268310
19164, -500, -1121, -204, -36400, 81340, 274680
19184, -731, -1701, -301, -36190, 63350, 287630
19204, -1035, -1998, -464, -45010, 51730, 281820
19224, -700, -1623, -277, -88690, 57190, 262850
19244, -525, -1226, -201, -84560, 20790, 248150
19264, -595, -1307, -243, -82390, -29540, 263480
19284, -772, -1609, -331, -105350, -69440, 318920
19304, -760, -1660, -329, -95060, -99050, 321020
19324, -534, -1312, -221, -49070, -100660, 216580
19344, -424, -1070, -185, -17080, -92400, 110740
19364, -410, -973, -187, -39900, -91280, 118510
19384, -460, -986, -214, -58100, -123410, 275660
19404, -460, -954, -203, 8890, -143710, 269430
19424, -402, -849, -173, 69790, -121940, 179620
19444, -355, -787, -161, 49560, -28350, 58310
19464, -304, -714, -148, 15330, 53760, -9940
19484, -263, -659, -129, 45500, 56070, -4270
19504, -259, -624, -115, 103040, 13160, 45220
19524, -248, -589, -107, 124950, -1680, 80920
19544, -266, -596, -117, 113540, 17710, 91210
19564, -298, -610, -125, 102620, 45570, 80080
19584, -317, -623, -125, 102620, 77140, 33320
19604, -363, -698, -146, 103880, 110810, -39270
19624, -416, -831, -188, 114100, 131250, -117670
19644, -466, -988, -213, 166320, 111300, -181720
19664, -507, -1268, -214, 231070, 71610, -216720
19684, -615, -1611, -267, 222320, 62790, -204050
19704, -681, -1570, -311, 120960, 85260, -129780
19724, -569, -1219, -259, 60620, 85610, -71750
19744, -528, -1081, -239, 112980, 42070, -93380
19764, -621, -1272, -273, 186270, -8820, -147000
19784, -775, -1672, -320, 214690, -24710, -219170
19804, -743, -1791, -323, 195860, -2660, -304640
19824, -559, -1394, -250, 122010, 32760, -329350
19844, -565, -1242, -263, 83300, -8890, -226800
19864, -652, -1348, -279, 96180, -88900, -117530
19884, -783, -1582, -303, 127750, -123620, -133910
19904, -677, -1507, -263, 103950, -78050, -254240
19924, -546, -1278, -200, 48510, -31500, -364140
19944, -496, -1108, -210, -11690, -37310, -342930
19964, -462, -1006, -183, -23590, -114800, -240380
19984, -469, -992, -191, 10990, -205240, -173390
20004, -407, -886, -159, -17080, -216090, -161490
20024, -365, -817, -142, -71610, -170450, -203490
20044, -359, -803, -158, -133000, -111160, -234570
20064, -305, -703, -130, -171010, -82670, -224140
20084, -250, -614, -112, -134400, -121660, -140070
20104, -224, -557, -122, -100660, -180600, -83720
20124, -204, -513, -111, -100100, -158130, -41650
20144, -187, -491, -105, -85750, -134610, -12600
20164, -185, -504, -113, -82180, -93170, 9450
20184, -191, -537, -128, -77980, -44170, 29960
20204, -205, -574, -123, -52080, -1470, 55650
20224, -240, -670, -146, -20720, 33810, 90370
20244, -300, -816, -163, 21840, 41580, 137970
20264, -428, -1097, -215, 68180, 37380, 192570
20284, -590, -1434, -276, 87710, 46970, 236250
20304, -613, -1443, -277, 75810, 82460, 249130
20324, -521, -1216, -235, 31570, 136850, 232260
20344, -468, -1099, -201, 24850, 146160, 229810
20364, -535, -1268, -232, 46130, 114800, 260890
20384, -731, -1687, -272, 60130, 81550, 295330
20404, -853, -1949, -342, 51800, 59290, 316190
20424, -719, -1597, -286, -5530, 52290, 312480
20444, -598, -1331, -234, -48090, 48720, 274190
20464, -632, -1429, -259, -52710, 11130, 255990
20484, -720, -1629, -276, -26320, -55510, 269570
20504, -768, -1713, -293, 15890, -131880, 283570
20524, -662, -1490, -269, -27720, -140980, 258580
20544, -561, -1238, -230, -77140, -142940, 223930
20564, -558, -1190, -241, -79870, -176190, 225260
20584, -540, -1157, -233, -53550, -219590, 235060
20604, -501, -1099, -224, 1330, -254030, 206990
20624, -432, -984, -199, 27020, -242900, 142170
20644, -362, -851, -159, 26320, -204820, 80990
20664, -314, -725, -119, 20370, -167090, 53060
20684, -301, -681, -128, 4270, -137620, 58940
20704, -296, -642, -128, -7210, -128870, 81130
20724, -292, -596, -126, 2380, -130130, 93310
20744, -270, -546, -114, 35000, -132160, 80290
20764, -245, -502, -97, 66500, -112350, 25060
20784, -242, -498, -91, 70700, -62720, -47600
20804, -253, -534, -92, 41650, 52850, -154420
20824, -290, -620, -116, 20160, 102550, -181790
20844, -359, -774, -143, 12670, 138950, -200270
20864, -427, -995, -177, 16660, 164990, -222110
20884, -566, -1381, -225, 27650, 169120, -219030
20904, -779, -1823, -340, 6440, 174860, -193760
20924, -585, -1357, -233, 13930, 155470, -181090
20944, -447, -1007, -169, 27230, 133280, -183540
20964, -465, -980, -188, 17640, 121800, -170310
20984, -641, -1327, -247, 32900, 109340, -180110
21004, -929, -1992, -376, 45640, 132440, -256410
21024, -854, -1998, -348, 32690, 179550, -358470
21044, -549, -1368, -207, 20370, 170870, -361340
21064, -479, -1113, -182, -1960, 102270, -235130
21084, -606, -1260, -238, -19040, 31850, -125930
21104, -766, -1551, -287, -5250, -5740, -129500
21124, -730, -1594, -266, -22190, 31500, -250250
21144, -555, -1323, -205, -63840, 80780, -366170
21164, -426, -1021, -146, -76090, 37870, -332990
21184, -399, -916, -144, -80640, -55790, -215320
21204, -409, -879, -161, -105560, -124600, -116340
21224, -392, -822, -163, -132860, -148540, -78260
21244, -345, -732, -147, -156660, -125790, -110460
21264, -294, -684, -140, -166390, -90370, -161420
21284, -240, -647, -126, -151270, -77910, -179550
21304, -204, -604, -108, -118440, -84630, -156660
21324, -192, -559, -110, -92680, -88830, -94430
21344, -219, -594, -126, -85540, -78120, -12040
21364, -208, -579, -117, -80010, -51520, 50960
21384, -250, -637, -129, -52570, -23590, 89460
21404, -289, -714, -151, -34370, 4690, 119840
21424, -326, -802, -157, -11480, 19250, 140280
21444, -401, -988, -192, 46130, 9450, 153580
21464, -473, -1177, -238, 71540, 24360, 152740
21484, -481, -1221, -223, 62720, 57050, 149520
21504, -496, -1232, -224, 88410, 55720, 162610
21524, -523, -1274, -238, 88690, 32410, 228410
21544, -532, -1299, -236, 65940, 45780, 242900
21564, -597, -1375, -268, 59080, 35700, 272300
21584, -639, -1452, -284, 80990, 10850, 278600
21604, -637, -1531, -273, 105840, 1330, 241710
21624, -660, -1589, -294, 94360, 4200, 220290
21644, -624, -1508, -277, 74830, 70, 229880
21664, -568, -1360, -236, 86800, -24780, 249410
21684, -594, -1340, -250, 69440, -37380, 278530
21704, -638, -1432, -270, 45430, -35350, 274540
21724, -622, -1423, -266, 61530, -45920, 227850
21744, -537, -1271, -227, 88620, -66570, 176890
21764, -450, -1103, -182, 101780, -86240, 152810
21784, -448, -1038, -186, 80990, -94710, 171500
21804, -469, -1019, -201, 46760, -94850, 205100
21824, -434, -935, -183, 53970, -100730, 197330
21844, -376, -832, -150, 85820, -100310, 138670
21864, -334, -753, -135, 87990, -77000, 75250
21884, -296, -668, -120, 70980, -52640, 42210
21904, -273, -610, -110, 69370, -47740, 34510
21924, -267, -580, -106, 78260, -52570, 36260
21944, -281, -593, -116, 82390, -51730, 34580
21964, -296, -615, -118, 87150, -43330, 16800
21984, -316, -666, -127, 91210, -19180, -29540
22004, -358, -763, -150, 73640, 27090, -91140
22024, -416, -900, -177, 48090, 82530, -152810
22044, -466, -1055, -192, 50890, 115920, -200270
22064, -514, -1255, -208, 73150, 121170, -221340
22084, -542, -1303, -224, 70490, 113050, -200270
22104, -522, -1199, -210, 36960, 104440, -156240
22124, -515, -1120, -201, 19950, 86100, -126210
22144, -542, -1151, -213, 21210, 66010, -131250
22164, -578, -1262, -226, 25200, 57400, -171570
22184, -603, -1440, -233, 36540, 58310, -234290
22204, -583, -1432, -225, 26180, 73500, -282800
22224, -515, -1199, -197, -57260, 64750, -204050
22244, -529, -1145, -195, -68180, 25480, -157290
22264, -629, -1342, -243, -69300, -4480, -171010
22284, -715, -1602, -276, -50960, -26390, -231280
22304, -592, -1464, -239, -68600, -20510, -283010
22324, -438, -1058, -163, -114240, -26530, -241850
22344, -440, -954, -166, -150570, -55860, -153090
22364, -467, -981, -184, -175910, -74480, -118860
22384, -468, -1002, -185, -165830, -95270, -143850
22404, -432, -990, -169, -149520, -112070, -184170
22424, -410, -982, -173, -174160, -109550, -192080
22444, -397, -930, -166, -190330, -125930, -148890
22464, -372, -819, -152, -186130, -167650, -79450
22484, -333, -690, -133, -182980, -203140, -24640
22504, -291, -588, -123, -191730, -212940, -5600
22524, -275, -558, -122, -203000, -204610, -11270
22544, -282, -582, -133, -201250, -201390, -17990
22564, -298, -620, -151, -169610, -217630, -17150
22584, -302, -649, -147, -102480, -253540, -13020
22604, -319, -722, -162, -32690, -280070, -23240
22624, -378, -885, -202, -11620, -267960, -43960
22644, -439, -1070, -241, -25060, -225540, -60690
22664, -496, -1190, -268, -6860, -196350, -62650
22684, -467, -1183, -251, 64260, -218330, -41300
22704, -437, -1081, -224, 108360, -231140, -23940
22724, -452, -1080, -225, 117950, -216720, 2870
22744, -547, -1197, -272, 108360, -176190, 5040
22764, -583, -1308, -295, 112560, -137410, -29400
22784, -567, -1352, -297, 168350, -123970, -104090
22804, -527, -1359, -272, 211820, -113540, -164570
22824, -547, -1382, -291, 216510, -101150, -159250
22844, -596, -1423, -305, 190680, -88060, -94570
22864, -669, -1524, -339, 185780, -74900, -49420
22884, -617, -1404, -303, 190120, -47250, -59640
22904, -512, -1243, -249, 216090, -24430, -111230
22924, -471, -1193, -229, 237650, -4830, -159740
22944, -536, -1277, -256, 198940, 8400, -72940
22964, -569, -1316, -275, 181510, 23800, -50960
22984, -501, -1177, -234, 184730, 40460, -71750
23004, -438, -1022, -204, 185360, 52080, -82810
23024, -357, -851, -163, 170660, 69860, -77700
23044, -318, -757, -144, 161420, 80710, -57400
23064, -315, -723, -137, 145180, 90790, -24220
23084, -332, -725, -143, 137130, 98070, 280
23104, -324, -693, -133, 132860, 114030, -7700
23124, -294, -634, -111, 123830, 136500, -35910
23144, -276, -598, -88, 98980, 156870, -49700
23164, -289, -612, -85, 70560, 162050, -43890
23184, -305, -649, -88, 40880, 157290, -39340
23204, -316, -697, -99, 3640, 153650, -48230
23224, -354, -782, -122, -30870, 140490, -52430
23244, -411, -895, -147, -45080, 108710, -45150
23264, -440, -987, -156, -43960, 77210, -55860
23284, -434, -1041, -161, -61180, 74760, -93030
23304, -410, -1031, -160, -101780, 88970, -114380
23324, -441, -1065, -178, -138740, 87920, -86590
23344, -502, -1189, -215, -163100, 72100, -36890
23364, -547, -1293, -226, -171640, 60200, -18270
23384, -548, -1320, -234, -175630, 63070, -31010
23404, -534, -1304, -228, -198310, 82180, -50330
23424, -548, -1348, -237, -209510, 85050, -48860
23444, -589, -1425, -256, -200830, 62790, -20720
23464, -583, -1376, -250, -203070, 45570, 10150
23484, -503, -1179, -207, -216230, 44730, 15750
23504, -461, -1087, -197, -222670, 43820, 3360
23524, -471, -1103, -198, -233240, 39690, 770
23544, -533, -1235, -229, -227430, 21000, 16730
23564, -560, -1295, -245, -212590, -5880, 33180
23584, -467, -1120, -200, -196210, -26810, 27230
23604, -403, -969, -172, -179970, -38920, 7000
23624, -419, -939, -184, -189770, -40110, 16100
23644, -421, -907, -179, -183750, -80640, 80640
23664, -400, -850, -167, -146580, -99190, 51520
23684, -362, -790, -149, -128730, -94640, -1470
23704, -325, -742, -135, -111020, -95690, -36050
23724, -310, -721, -136, -94290, -108570, -34300
23744, -318, -718, -144, -72870, -129010, -9030
23764, -317, -711, -147, -45080, -146650, 9520
23784, -322, -707, -149, -22050, -146160, 2590
23804, -345, -745, -163, -14140, -126770, -23450
23824, -360, -784, -177, 3080, -107730, -60060
23844, -365, -817, -174, 47600, -104930, -99120
23864, -381, -881, -188, 71400, -94080, -131250
23884, -410, -971, -206, 85260, -82390, -140700
23904, -458, -1121, -239, 106120, -79310, -135380
23924, -537, -1272, -268, 123340, -77840, -120470
23944, -537, -1259, -268, 132510, -66150, -114030
23964, -451, -1095, -230, 138180, -41230, -132580
23984, -435, -1018, -226, 143710, -25130, -132300
24004, -488, -1103, -253, 156380, -21630, -108920
24024, -557, -1283, -277, 180250, -11200, -116760
24044, -599, -1436, -286, 207060, 5110, -148750
24064, -597, -1466, -303, 195300, 37660, -172690
24084, -536, -1355, -270, 170870, 63070, -159740
24104, -534, -1283, -260, 189770, 42980, -104300
24124, -497, -1146, -236, 197680, 24360, -42700
24144, -431, -972, -194, 195580, 30520, -30940
24164, -390, -887, -179, 181440, 57750, -57190
24184, -384, -889, -179, 160230, 83790, -74900
24204, -396, -935, -172, 164430, 82600, -70350
24224, -402, -964, -172, 166110, 79170, -57190
24244, -392, -920, -159, 132020, 95130, -40950
24264, -391, -878, -158, 92960, 105980, -15400
24284, -370, -826, -150, 70560, 99400, 7840
24304, -354, -784, -135, 72730, 80570, 9940
24324, -333, -751, -127, 80710, 62790, 1680
24344, -313, -719, -123, 62300, 69020, -13160
24364, -295, -691, -115, 70, 105490, -20370
24384, -306, -716, -114, -17080, 109130, -1260
24404, -350, -797, -133, -36260, 107870, 23730
24424, -389, -868, -150, -55020, 107100, 31360
24444, -420, -935, -164, -66290, 106750, 12810
24464, -438, -1018, -171, -68740, 103110, -17710
24484, -457, -1098, -173, -69370, 92400, -36190
24504, -461, -1107, -178, -92890, 84420, -29960
24524, -176, -1265, -321, -133420, 81200, -13790
24544, -546, -847, 92, 27020, 279440, 23520
24564, -106, -1296, 135, -81550, 199290, -72940
24584, -102, -650, -96, 102130, -124530, -37240
24604, 268, -601, 73, 105490, -176540, 50750
24624, -1042, -1158, 805, 33950, 180180, -10220
